{
  "resourceType": "Questionnaire",
  "id": "5e97518783de8a586fa8f221",
  "meta": {
      "extension": [
          {
              "url": "http://midata.coop/extensions/metadata",
              "extension": [
                  {
                      "url": "app",
                      "valueCoding": {
                          "system": "http://midata.coop/codesystems/app",
                          "code": "corona_aggregator",
                          "display": "Corona Participant/Panels Counter"
                      }
                  },
                  {
                      "url": "creator",
                      "valueReference": {
                          "reference": "Patient/5e971eed06e50b1b73133d8c"
                      }
                  },
                  {
                      "url": "modifiedBy",
                      "valueReference": {
                          "reference": "Patient/5e971eed06e50b1b73133d8c"
                      }
                  }
              ]
          }
      ],
      "versionId": "1594500453623",
      "lastUpdated": "2020-07-11T22:47:33.623+02:00",
      "security": [
          {
              "system": "http://midata.coop/codesystems/security",
              "code": "public"
          }
      ]
  },
  "contained": [
      {
          "resourceType": "ValueSet",
          "id": "QR1.yes-no.valueset",
          "url": "http://fhir.ch/ig/covid-19-prom/Questionnaire/questionnaire-corona-science-recurring-questions-QR1#QR1.yes-no.valueset",
          "title": "Yes/No",
          "status": "active",
          "compose": {
              "include": [
                  {
                      "system": "http://snomed.info/sct",
                      "concept": [
                          {
                              "code": "373066001",
                              "display": "Yes",
                              "designation": [
                                  {
                                      "language": "de",
                                      "value": "Ja"
                                  },
                                  {
                                      "language": "en",
                                      "value": "Yes"
                                  },
                                  {
                                      "language": "fr",
                                      "value": "Oui"
                                  },
                                  {
                                      "language": "gsw",
                                      "value": "Ja"
                                  },
                                  {
                                      "language": "it",
                                      "value": "Si"
                                  },
                                  {
                                      "language": "rm",
                                      "value": "gea"
                                  }
                              ]
                          },
                          {
                              "code": "373067005",
                              "display": "No",
                              "designation": [
                                  {
                                      "language": "de",
                                      "value": "Nein"
                                  },
                                  {
                                      "language": "en",
                                      "value": "No"
                                  },
                                  {
                                      "language": "fr",
                                      "value": "Non"
                                  },
                                  {
                                      "language": "gsw",
                                      "value": "Nei"
                                  },
                                  {
                                      "language": "it",
                                      "value": "No"
                                  },
                                  {
                                      "language": "rm",
                                      "value": "na"
                                  }
                              ]
                          }
                      ]
                  }
              ]
          }
      },
      {
          "resourceType": "ValueSet",
          "id": "QR1.IS3.valueset",
          "url": "http://fhir.ch/ig/covid-19-prom/Questionnaire/questionnaire-corona-science-recurring-questions-QR1#QR1.IS3.valueset",
          "title": "Coronavirus test result",
          "status": "active",
          "compose": {
              "include": [
                  {
                      "system": "http://fhir.ch/ig/covid-19-prom/Questionnaire/questionnaire-corona-science-recurring-questions",
                      "concept": [
                          {
                              "code": "testPositive",
                              "display": "positive",
                              "designation": [
                                  {
                                      "language": "de",
                                      "value": "positiv"
                                  },
                                  {
                                      "language": "en",
                                      "value": "positive"
                                  },
                                  {
                                      "language": "fr",
                                      "value": "positif"
                                  },
                                  {
                                      "language": "gsw",
                                      "value": "positiv"
                                  },
                                  {
                                      "language": "it",
                                      "value": "positivo"
                                  },
                                  {
                                      "language": "rm",
                                      "value": "positiv"
                                  }
                              ]
                          },
                          {
                              "code": "testNegative",
                              "display": "negative",
                              "designation": [
                                  {
                                      "language": "de",
                                      "value": "negativ"
                                  },
                                  {
                                      "language": "en",
                                      "value": "negative"
                                  },
                                  {
                                      "language": "fr",
                                      "value": "négatif"
                                  },
                                  {
                                      "language": "gsw",
                                      "value": "negativ"
                                  },
                                  {
                                      "language": "it",
                                      "value": "negativo"
                                  },
                                  {
                                      "language": "rm",
                                      "value": "negativ"
                                  }
                              ]
                          },
                          {
                              "code": "testPending",
                              "display": "pending",
                              "designation": [
                                  {
                                      "language": "de",
                                      "value": "ausstehend"
                                  },
                                  {
                                      "language": "en",
                                      "value": "pending"
                                  },
                                  {
                                      "language": "fr",
                                      "value": "en attente"
                                  },
                                  {
                                      "language": "gsw",
                                      "value": "warte no druf"
                                  },
                                  {
                                      "language": "it",
                                      "value": "in attesa"
                                  },
                                  {
                                      "language": "rm",
                                      "value": "ausstehend"
                                  }
                              ]
                          }
                      ]
                  }
              ]
          }
      },
      {
          "resourceType": "ValueSet",
          "id": "QR1.IE1.valueset",
          "url": "http://fhir.ch/ig/covid-19-prom/Questionnaire/questionnaire-corona-science-recurring-questions-QR1#QR1.IE1.valueset",
          "title": "Mood",
          "status": "active",
          "compose": {
              "include": [
                  {
                      "system": "http://fhir.ch/ig/covid-19-prom/Questionnaire/questionnaire-corona-science-recurring-questions",
                      "concept": [
                          {
                              "code": "good",
                              "display": "good",
                              "designation": [
                                  {
                                      "language": "de",
                                      "value": "gut"
                                  },
                                  {
                                      "language": "en",
                                      "value": "good"
                                  },
                                  {
                                      "language": "fr",
                                      "value": "bien"
                                  },
                                  {
                                      "language": "gsw",
                                      "value": "guet"
                                  },
                                  {
                                      "language": "it",
                                      "value": "bene"
                                  },
                                  {
                                      "language": "rm",
                                      "value": "gut"
                                  }
                              ]
                          },
                          {
                              "code": "ratherGood",
                              "display": "rather good",
                              "designation": [
                                  {
                                      "language": "de",
                                      "value": "eher gut"
                                  },
                                  {
                                      "language": "en",
                                      "value": "rather good"
                                  },
                                  {
                                      "language": "fr",
                                      "value": "plutôt bien"
                                  },
                                  {
                                      "language": "gsw",
                                      "value": "eher guet"
                                  },
                                  {
                                      "language": "it",
                                      "value": "abbastanza bene"
                                  },
                                  {
                                      "language": "rm",
                                      "value": "eher gut"
                                  }
                              ]
                          },
                          {
                              "code": "ratherBad",
                              "display": "rather bad",
                              "designation": [
                                  {
                                      "language": "de",
                                      "value": "eher schlecht"
                                  },
                                  {
                                      "language": "en",
                                      "value": "rather bad"
                                  },
                                  {
                                      "language": "fr",
                                      "value": "pas bien"
                                  },
                                  {
                                      "language": "gsw",
                                      "value": "eher schlächt"
                                  },
                                  {
                                      "language": "it",
                                      "value": "piuttosto male"
                                  },
                                  {
                                      "language": "rm",
                                      "value": "eher schlecht"
                                  }
                              ]
                          },
                          {
                              "code": "bad",
                              "display": "bad",
                              "designation": [
                                  {
                                      "language": "de",
                                      "value": "schlecht"
                                  },
                                  {
                                      "language": "en",
                                      "value": "bad"
                                  },
                                  {
                                      "language": "fr",
                                      "value": "mal"
                                  },
                                  {
                                      "language": "gsw",
                                      "value": "schlächt"
                                  },
                                  {
                                      "language": "it",
                                      "value": "molto male"
                                  },
                                  {
                                      "language": "rm",
                                      "value": "schlecht"
                                  }
                              ]
                          }
                      ]
                  }
              ]
          }
      },
      {
          "resourceType": "ValueSet",
          "id": "QR1.IE2.valueset",
          "url": "http://fhir.ch/ig/covid-19-prom/Questionnaire/questionnaire-corona-science-recurring-questions-QR1#QR1.IE2.valueset",
          "title": "Worries",
          "status": "active",
          "compose": {
              "include": [
                  {
                      "system": "http://fhir.ch/ig/covid-19-prom/Questionnaire/questionnaire-corona-science-recurring-questions",
                      "concept": [
                          {
                              "code": "nothing",
                              "display": "nothing",
                              "designation": [
                                  {
                                      "language": "de",
                                      "value": "nichts"
                                  },
                                  {
                                      "language": "en",
                                      "value": "nothing"
                                  },
                                  {
                                      "language": "fr",
                                      "value": "rien"
                                  },
                                  {
                                      "language": "gsw",
                                      "value": "nüt"
                                  },
                                  {
                                      "language": "it",
                                      "value": "nulla"
                                  },
                                  {
                                      "language": "rm",
                                      "value": "nichts"
                                  }
                              ]
                          },
                          {
                              "code": "family",
                              "display": "my family",
                              "designation": [
                                  {
                                      "language": "de",
                                      "value": "meine Familie"
                                  },
                                  {
                                      "language": "en",
                                      "value": "my family"
                                  },
                                  {
                                      "language": "fr",
                                      "value": "ma famille"
                                  },
                                  {
                                      "language": "gsw",
                                      "value": "mini Familie"
                                  },
                                  {
                                      "language": "it",
                                      "value": "la mia famiglia"
                                  },
                                  {
                                      "language": "rm",
                                      "value": "meine Familie"
                                  }
                              ]
                          },
                          {
                              "code": "health",
                              "display": "my health",
                              "designation": [
                                  {
                                      "language": "de",
                                      "value": "meine Gesundheit"
                                  },
                                  {
                                      "language": "en",
                                      "value": "my health"
                                  },
                                  {
                                      "language": "fr",
                                      "value": "ma santé"
                                  },
                                  {
                                      "language": "gsw",
                                      "value": "mini Gsundheit"
                                  },
                                  {
                                      "language": "it",
                                      "value": "la mia salute"
                                  },
                                  {
                                      "language": "rm",
                                      "value": "meine Gesundheit"
                                  }
                              ]
                          },
                          {
                              "code": "future",
                              "display": "my future",
                              "designation": [
                                  {
                                      "language": "de",
                                      "value": "meine Zukunft"
                                  },
                                  {
                                      "language": "en",
                                      "value": "my future"
                                  },
                                  {
                                      "language": "fr",
                                      "value": "mon avenir"
                                  },
                                  {
                                      "language": "gsw",
                                      "value": "mini Zuekunft"
                                  },
                                  {
                                      "language": "it",
                                      "value": "il mio futuro"
                                  },
                                  {
                                      "language": "rm",
                                      "value": "meine Zukunft"
                                  }
                              ]
                          },
                          {
                              "code": "finance",
                              "display": "my finance",
                              "designation": [
                                  {
                                      "language": "de",
                                      "value": "meine Finanzen"
                                  },
                                  {
                                      "language": "en",
                                      "value": "my finance"
                                  },
                                  {
                                      "language": "fr",
                                      "value": "mes finances"
                                  },
                                  {
                                      "language": "gsw",
                                      "value": "mini Finanze"
                                  },
                                  {
                                      "language": "it",
                                      "value": "le mie finanze"
                                  },
                                  {
                                      "language": "rm",
                                      "value": "meine Finanzen"
                                  }
                              ]
                          }
                      ]
                  }
              ]
          }
      },
      {
          "resourceType": "ValueSet",
          "id": "QR1.IE3.valueset",
          "url": "http://fhir.ch/ig/covid-19-prom/Questionnaire/questionnaire-corona-science-recurring-questions-QR1#QR1.IE3.valueset",
          "title": "Going outside",
          "status": "active",
          "compose": {
              "include": [
                  {
                      "system": "http://fhir.ch/ig/covid-19-prom/Questionnaire/questionnaire-corona-science-recurring-questions",
                      "concept": [
                          {
                              "code": "severalTimesADay",
                              "display": "several times a day",
                              "designation": [
                                  {
                                      "language": "de",
                                      "value": "mehrmals pro Tag"
                                  },
                                  {
                                      "language": "en",
                                      "value": "several times a day"
                                  },
                                  {
                                      "language": "fr",
                                      "value": "plusieurs fois par jour"
                                  },
                                  {
                                      "language": "gsw",
                                      "value": "mehrmaus am Tag"
                                  },
                                  {
                                      "language": "it",
                                      "value": "più volte al giorno"
                                  },
                                  {
                                      "language": "rm",
                                      "value": "mehrmals pro Tag"
                                  }
                              ]
                          },
                          {
                              "code": "severalTimesAWeek",
                              "display": "several times a week",
                              "designation": [
                                  {
                                      "language": "de",
                                      "value": "mehrmals pro Woche"
                                  },
                                  {
                                      "language": "en",
                                      "value": "several times a week"
                                  },
                                  {
                                      "language": "fr",
                                      "value": "plusieurs fois par semaine"
                                  },
                                  {
                                      "language": "gsw",
                                      "value": "mehrmaus ir Wuche"
                                  },
                                  {
                                      "language": "it",
                                      "value": "più volte a settimana"
                                  },
                                  {
                                      "language": "rm",
                                      "value": "mehrmals pro Woche"
                                  }
                              ]
                          },
                          {
                              "code": "onceAWeek",
                              "display": "once a week",
                              "designation": [
                                  {
                                      "language": "de",
                                      "value": "einmal pro Woche"
                                  },
                                  {
                                      "language": "en",
                                      "value": "once a week"
                                  },
                                  {
                                      "language": "fr",
                                      "value": "une fois par semaine"
                                  },
                                  {
                                      "language": "gsw",
                                      "value": "einisch ir Wuche"
                                  },
                                  {
                                      "language": "it",
                                      "value": "una volta alla settimana"
                                  },
                                  {
                                      "language": "rm",
                                      "value": "einmal pro Woche"
                                  }
                              ]
                          },
                          {
                              "code": "never",
                              "display": "never",
                              "designation": [
                                  {
                                      "language": "de",
                                      "value": "nie"
                                  },
                                  {
                                      "language": "en",
                                      "value": "never"
                                  },
                                  {
                                      "language": "fr",
                                      "value": "jamais"
                                  },
                                  {
                                      "language": "gsw",
                                      "value": "gar nid"
                                  },
                                  {
                                      "language": "it",
                                      "value": "mai"
                                  },
                                  {
                                      "language": "rm",
                                      "value": "nie"
                                  }
                              ]
                          }
                      ]
                  }
              ]
          }
      },
      {
          "resourceType": "ValueSet",
          "id": "QR1.IE4.valueset",
          "url": "http://fhir.ch/ig/covid-19-prom/Questionnaire/questionnaire-corona-science-recurring-questions-QR1#QR1.IE4.valueset",
          "title": "Feeling",
          "status": "active",
          "compose": {
              "include": [
                  {
                      "system": "http://fhir.ch/ig/covid-19-prom/Questionnaire/questionnaire-corona-science-recurring-questions",
                      "concept": [
                          {
                              "code": "supported",
                              "display": "supported",
                              "designation": [
                                  {
                                      "language": "de",
                                      "value": "gut aufgehoben"
                                  },
                                  {
                                      "language": "en",
                                      "value": "supported"
                                  },
                                  {
                                      "language": "fr",
                                      "value": "très soutenu-e"
                                  },
                                  {
                                      "language": "gsw",
                                      "value": "guet ufghobe"
                                  },
                                  {
                                      "language": "it",
                                      "value": "molto sicuro"
                                  },
                                  {
                                      "language": "rm",
                                      "value": "gut aufgehoben"
                                  }
                              ]
                          },
                          {
                              "code": "ratherSupported",
                              "display": "rather supported",
                              "designation": [
                                  {
                                      "language": "de",
                                      "value": "eher gut aufgehoben"
                                  },
                                  {
                                      "language": "en",
                                      "value": "rather supported"
                                  },
                                  {
                                      "language": "fr",
                                      "value": "plutôt soutenu-e"
                                  },
                                  {
                                      "language": "gsw",
                                      "value": "eher guet ufghobe"
                                  },
                                  {
                                      "language": "it",
                                      "value": "abbastanza sicuro"
                                  },
                                  {
                                      "language": "rm",
                                      "value": "eher gut aufgehoben"
                                  }
                              ]
                          },
                          {
                              "code": "ratherLonely",
                              "display": "rather lonely",
                              "designation": [
                                  {
                                      "language": "de",
                                      "value": "eher einsam"
                                  },
                                  {
                                      "language": "en",
                                      "value": "rather lonely"
                                  },
                                  {
                                      "language": "fr",
                                      "value": "relativement seul-e"
                                  },
                                  {
                                      "language": "gsw",
                                      "value": "eher elei"
                                  },
                                  {
                                      "language": "it",
                                      "value": "relativamente ghiacciato"
                                  },
                                  {
                                      "language": "rm",
                                      "value": "eher einsam"
                                  }
                              ]
                          },
                          {
                              "code": "lonely",
                              "display": "lonely",
                              "designation": [
                                  {
                                      "language": "de",
                                      "value": "einsam"
                                  },
                                  {
                                      "language": "en",
                                      "value": "lonely"
                                  },
                                  {
                                      "language": "fr",
                                      "value": "très seul-e"
                                  },
                                  {
                                      "language": "gsw",
                                      "value": "elei"
                                  },
                                  {
                                      "language": "it",
                                      "value": "molto solo"
                                  },
                                  {
                                      "language": "rm",
                                      "value": "einsam"
                                  }
                              ]
                          }
                      ]
                  }
              ]
          }
      }
  ],
  "extension": [
      {
          "url": "http://midata.coop/extensions/valueset-reference",
          "valueReference": {
              "reference": "#QR1.yes-no.valueset"
          }
      },
      {
          "url": "http://midata.coop/extensions/valueset-reference",
          "valueReference": {
              "reference": "#QR1.IS3.valueset"
          }
      },
      {
          "url": "http://midata.coop/extensions/valueset-reference",
          "valueReference": {
              "reference": "#QR1.IE1.valueset"
          }
      },
      {
          "url": "http://midata.coop/extensions/valueset-reference",
          "valueReference": {
              "reference": "#QR1.IE2.valueset"
          }
      },
      {
          "url": "http://midata.coop/extensions/valueset-reference",
          "valueReference": {
              "reference": "#QR1.IE3.valueset"
          }
      },
      {
          "url": "http://midata.coop/extensions/valueset-reference",
          "valueReference": {
              "reference": "#QR1.IE4.valueset"
          }
      }
  ],
  "url": "http://fhir.ch/ig/covid-19-prom/Questionnaire/questionnaire-corona-science-recurring-questions-QR1",
  "version": "1.0",
  "name": "Corona_Science_Recurring_questions_QR1",
  "title": "Corona Science - Recurring questions",
  "_title": {
      "extension": [
          {
              "url": "http://hl7.org/fhir/StructureDefinition/translation",
              "extension": [
                  {
                      "url": "lang",
                      "valueCode": "de"
                  },
                  {
                      "url": "content",
                      "valueString": "Corona Science - Wiederkehrende Fragen"
                  }
              ]
          },
          {
              "url": "http://hl7.org/fhir/StructureDefinition/translation",
              "extension": [
                  {
                      "url": "lang",
                      "valueCode": "en"
                  },
                  {
                      "url": "content",
                      "valueString": "Corona Science - Recurring questions"
                  }
              ]
          },
          {
              "url": "http://hl7.org/fhir/StructureDefinition/translation",
              "extension": [
                  {
                      "url": "lang",
                      "valueCode": "fr"
                  },
                  {
                      "url": "content",
                      "valueString": "Corona Science - Questions récurrentes"
                  }
              ]
          },
          {
              "url": "http://hl7.org/fhir/StructureDefinition/translation",
              "extension": [
                  {
                      "url": "lang",
                      "valueCode": "gsw"
                  },
                  {
                      "url": "content",
                      "valueString": "Corona Science - Wederkehrendi Frage"
                  }
              ]
          },
          {
              "url": "http://hl7.org/fhir/StructureDefinition/translation",
              "extension": [
                  {
                      "url": "lang",
                      "valueCode": "it"
                  },
                  {
                      "url": "content",
                      "valueString": "Corona Science - Questioni ricorrenti"
                  }
              ]
          },
          {
              "url": "http://hl7.org/fhir/StructureDefinition/translation",
              "extension": [
                  {
                      "url": "lang",
                      "valueCode": "rm"
                  },
                  {
                      "url": "content",
                      "valueString": "Corona Science - Wiederkehrende Fragen"
                  }
              ]
          }
      ]
  },
  "status": "retired",
  "subjectType": [
      "Patient"
  ],
  "publisher": "Corona Science",
  "useContext": [
      {
          "code": {
              "system": "http://midata.coop/codesystems/usecontext-type",
              "code": "prom"
          },
          "valueCodeableConcept": {
              "coding": [
                  {
                      "system": "http://midata.coop/codesystems/coronascience-questionnaire-type",
                      "code": "recurringQuestions"
                  }
              ]
          }
      }
  ],
  "effectivePeriod": {
      "start": "2020-04-01"
  },
  "code": [
      {
          "system": "http://loinc.org",
          "code": "89196-0",
          "display": "Patient reported outcome measure panel"
      }
  ],
  "item": [
      {
          "linkId": "QR1.IS0",
          "text": "Symptoms",
          "_text": {
              "extension": [
                  {
                      "url": "http://hl7.org/fhir/StructureDefinition/translation",
                      "extension": [
                          {
                              "url": "lang",
                              "valueCode": "de"
                          },
                          {
                              "url": "content",
                              "valueString": "Symptome"
                          }
                      ]
                  },
                  {
                      "url": "http://hl7.org/fhir/StructureDefinition/translation",
                      "extension": [
                          {
                              "url": "lang",
                              "valueCode": "en"
                          },
                          {
                              "url": "content",
                              "valueString": "Symptoms"
                          }
                      ]
                  },
                  {
                      "url": "http://hl7.org/fhir/StructureDefinition/translation",
                      "extension": [
                          {
                              "url": "lang",
                              "valueCode": "fr"
                          },
                          {
                              "url": "content",
                              "valueString": "Symptômes"
                          }
                      ]
                  },
                  {
                      "url": "http://hl7.org/fhir/StructureDefinition/translation",
                      "extension": [
                          {
                              "url": "lang",
                              "valueCode": "gsw"
                          },
                          {
                              "url": "content",
                              "valueString": "Symptom"
                          }
                      ]
                  },
                  {
                      "url": "http://hl7.org/fhir/StructureDefinition/translation",
                      "extension": [
                          {
                              "url": "lang",
                              "valueCode": "it"
                          },
                          {
                              "url": "content",
                              "valueString": "Sintomi"
                          }
                      ]
                  },
                  {
                      "url": "http://hl7.org/fhir/StructureDefinition/translation",
                      "extension": [
                          {
                              "url": "lang",
                              "valueCode": "rm"
                          },
                          {
                              "url": "content",
                              "valueString": "sintoms"
                          }
                      ]
                  }
              ]
          },
          "type": "group",
          "repeats": false,
          "item": [
              {
                  "linkId": "QR1.IS1",
                  "text": "Do you suspect to be infected with the coronavirus?",
                  "_text": {
                      "extension": [
                          {
                              "url": "http://hl7.org/fhir/StructureDefinition/translation",
                              "extension": [
                                  {
                                      "url": "lang",
                                      "valueCode": "de"
                                  },
                                  {
                                      "url": "content",
                                      "valueString": "Hast du den Verdacht, am Coronavirus zu leiden?"
                                  }
                              ]
                          },
                          {
                              "url": "http://hl7.org/fhir/StructureDefinition/translation",
                              "extension": [
                                  {
                                      "url": "lang",
                                      "valueCode": "en"
                                  },
                                  {
                                      "url": "content",
                                      "valueString": "Do you suspect to be infected with the coronavirus?"
                                  }
                              ]
                          },
                          {
                              "url": "http://hl7.org/fhir/StructureDefinition/translation",
                              "extension": [
                                  {
                                      "url": "lang",
                                      "valueCode": "fr"
                                  },
                                  {
                                      "url": "content",
                                      "valueString": "Penses-tu souffrir du coronavirus?"
                                  }
                              ]
                          },
                          {
                              "url": "http://hl7.org/fhir/StructureDefinition/translation",
                              "extension": [
                                  {
                                      "url": "lang",
                                      "valueCode": "gsw"
                                  },
                                  {
                                      "url": "content",
                                      "valueString": "Hesch du ds Gfüeu, am Coronavirus z'lide?"
                                  }
                              ]
                          },
                          {
                              "url": "http://hl7.org/fhir/StructureDefinition/translation",
                              "extension": [
                                  {
                                      "url": "lang",
                                      "valueCode": "it"
                                  },
                                  {
                                      "url": "content",
                                      "valueString": "Pensi di avere il coronavirus?"
                                  }
                              ]
                          },
                          {
                              "url": "http://hl7.org/fhir/StructureDefinition/translation",
                              "extension": [
                                  {
                                      "url": "lang",
                                      "valueCode": "rm"
                                  },
                                  {
                                      "url": "content",
                                      "valueString": "Hast du den Verdacht, am Coronavirus zu leiden?"
                                  }
                              ]
                          }
                      ]
                  },
                  "type": "choice",
                  "repeats": false,
                  "answerValueSet": "#QR1.yes-no.valueset"
              },
              {
                  "linkId": "QR1.IS2",
                  "text": "Were you tested for the coronavirus?",
                  "_text": {
                      "extension": [
                          {
                              "url": "http://hl7.org/fhir/StructureDefinition/translation",
                              "extension": [
                                  {
                                      "url": "lang",
                                      "valueCode": "de"
                                  },
                                  {
                                      "url": "content",
                                      "valueString": "Wurdest du auf das Coronavirus getestet?"
                                  }
                              ]
                          },
                          {
                              "url": "http://hl7.org/fhir/StructureDefinition/translation",
                              "extension": [
                                  {
                                      "url": "lang",
                                      "valueCode": "en"
                                  },
                                  {
                                      "url": "content",
                                      "valueString": "Were you tested for the coronavirus?"
                                  }
                              ]
                          },
                          {
                              "url": "http://hl7.org/fhir/StructureDefinition/translation",
                              "extension": [
                                  {
                                      "url": "lang",
                                      "valueCode": "fr"
                                  },
                                  {
                                      "url": "content",
                                      "valueString": "As-tu été testé-e pour le coronavirus?"
                                  }
                              ]
                          },
                          {
                              "url": "http://hl7.org/fhir/StructureDefinition/translation",
                              "extension": [
                                  {
                                      "url": "lang",
                                      "valueCode": "gsw"
                                  },
                                  {
                                      "url": "content",
                                      "valueString": "Bisch du uf ds Coronavirus testet worde?"
                                  }
                              ]
                          },
                          {
                              "url": "http://hl7.org/fhir/StructureDefinition/translation",
                              "extension": [
                                  {
                                      "url": "lang",
                                      "valueCode": "it"
                                  },
                                  {
                                      "url": "content",
                                      "valueString": "Hai effettuato un test per il coronavirus?"
                                  }
                              ]
                          },
                          {
                              "url": "http://hl7.org/fhir/StructureDefinition/translation",
                              "extension": [
                                  {
                                      "url": "lang",
                                      "valueCode": "rm"
                                  },
                                  {
                                      "url": "content",
                                      "valueString": "Wurdest du auf das Coronavirus getestet?"
                                  }
                              ]
                          }
                      ]
                  },
                  "type": "choice",
                  "repeats": false,
                  "answerValueSet": "#QR1.yes-no.valueset"
              },
              {
                  "linkId": "QR1.IS3",
                  "text": "What is the test result?",
                  "_text": {
                      "extension": [
                          {
                              "url": "http://hl7.org/fhir/StructureDefinition/translation",
                              "extension": [
                                  {
                                      "url": "lang",
                                      "valueCode": "de"
                                  },
                                  {
                                      "url": "content",
                                      "valueString": "Wie lautet das Testergebnis?"
                                  }
                              ]
                          },
                          {
                              "url": "http://hl7.org/fhir/StructureDefinition/translation",
                              "extension": [
                                  {
                                      "url": "lang",
                                      "valueCode": "en"
                                  },
                                  {
                                      "url": "content",
                                      "valueString": "What is the test result?"
                                  }
                              ]
                          },
                          {
                              "url": "http://hl7.org/fhir/StructureDefinition/translation",
                              "extension": [
                                  {
                                      "url": "lang",
                                      "valueCode": "fr"
                                  },
                                  {
                                      "url": "content",
                                      "valueString": "Quel est le résultat du test?"
                                  }
                              ]
                          },
                          {
                              "url": "http://hl7.org/fhir/StructureDefinition/translation",
                              "extension": [
                                  {
                                      "url": "lang",
                                      "valueCode": "gsw"
                                  },
                                  {
                                      "url": "content",
                                      "valueString": "Wie lutet dis Testergäbnis?"
                                  }
                              ]
                          },
                          {
                              "url": "http://hl7.org/fhir/StructureDefinition/translation",
                              "extension": [
                                  {
                                      "url": "lang",
                                      "valueCode": "it"
                                  },
                                  {
                                      "url": "content",
                                      "valueString": "Qual è il risultato del test?"
                                  }
                              ]
                          },
                          {
                              "url": "http://hl7.org/fhir/StructureDefinition/translation",
                              "extension": [
                                  {
                                      "url": "lang",
                                      "valueCode": "rm"
                                  },
                                  {
                                      "url": "content",
                                      "valueString": "Wie lautet das Testergebnis?"
                                  }
                              ]
                          }
                      ]
                  },
                  "type": "choice",
                  "enableWhen": [
                      {
                          "question": "QR1.IS2",
                          "operator": "=",
                          "answerCoding": {
                              "system": "http://snomed.info/sct",
                              "code": "373066001"
                          }
                      }
                  ],
                  "repeats": false,
                  "answerValueSet": "#QR1.IS3.valueset"
              },
              {
                  "linkId": "QR1.IS4",
                  "text": "Have you contacted a doctor's office or an emergency room?",
                  "_text": {
                      "extension": [
                          {
                              "url": "http://hl7.org/fhir/StructureDefinition/translation",
                              "extension": [
                                  {
                                      "url": "lang",
                                      "valueCode": "de"
                                  },
                                  {
                                      "url": "content",
                                      "valueString": "Hast du eine Arztpraxis oder eine Notfallaufnahme kontaktiert?"
                                  }
                              ]
                          },
                          {
                              "url": "http://hl7.org/fhir/StructureDefinition/translation",
                              "extension": [
                                  {
                                      "url": "lang",
                                      "valueCode": "en"
                                  },
                                  {
                                      "url": "content",
                                      "valueString": "Have you contacted a doctor's office or an emergency room?"
                                  }
                              ]
                          },
                          {
                              "url": "http://hl7.org/fhir/StructureDefinition/translation",
                              "extension": [
                                  {
                                      "url": "lang",
                                      "valueCode": "fr"
                                  },
                                  {
                                      "url": "content",
                                      "valueString": "As-tu contacté un cabinet médical ou les urgences?"
                                  }
                              ]
                          },
                          {
                              "url": "http://hl7.org/fhir/StructureDefinition/translation",
                              "extension": [
                                  {
                                      "url": "lang",
                                      "valueCode": "gsw"
                                  },
                                  {
                                      "url": "content",
                                      "valueString": "Hesch du en Arztpraxis oder e Notufnahm benachrichtiget?"
                                  }
                              ]
                          },
                          {
                              "url": "http://hl7.org/fhir/StructureDefinition/translation",
                              "extension": [
                                  {
                                      "url": "lang",
                                      "valueCode": "it"
                                  },
                                  {
                                      "url": "content",
                                      "valueString": "Hai contattato uno studio medico o un pronto soccorso?"
                                  }
                              ]
                          },
                          {
                              "url": "http://hl7.org/fhir/StructureDefinition/translation",
                              "extension": [
                                  {
                                      "url": "lang",
                                      "valueCode": "rm"
                                  },
                                  {
                                      "url": "content",
                                      "valueString": "Hast du eine Arztpraxis oder eine Notfallaufnahme kontaktiert?"
                                  }
                              ]
                          }
                      ]
                  },
                  "type": "choice",
                  "repeats": false,
                  "answerValueSet": "#QR1.yes-no.valueset"
              }
          ]
      },
      {
          "linkId": "QR1.IE0",
          "text": "Emotional state",
          "_text": {
              "extension": [
                  {
                      "url": "http://hl7.org/fhir/StructureDefinition/translation",
                      "extension": [
                          {
                              "url": "lang",
                              "valueCode": "de"
                          },
                          {
                              "url": "content",
                              "valueString": "Befindlichkeiten"
                          }
                      ]
                  },
                  {
                      "url": "http://hl7.org/fhir/StructureDefinition/translation",
                      "extension": [
                          {
                              "url": "lang",
                              "valueCode": "en"
                          },
                          {
                              "url": "content",
                              "valueString": "Emotional state"
                          }
                      ]
                  },
                  {
                      "url": "http://hl7.org/fhir/StructureDefinition/translation",
                      "extension": [
                          {
                              "url": "lang",
                              "valueCode": "fr"
                          },
                          {
                              "url": "content",
                              "valueString": "État émotionnel"
                          }
                      ]
                  },
                  {
                      "url": "http://hl7.org/fhir/StructureDefinition/translation",
                      "extension": [
                          {
                              "url": "lang",
                              "valueCode": "gsw"
                          },
                          {
                              "url": "content",
                              "valueString": "Befindlichkeite"
                          }
                      ]
                  },
                  {
                      "url": "http://hl7.org/fhir/StructureDefinition/translation",
                      "extension": [
                          {
                              "url": "lang",
                              "valueCode": "it"
                          },
                          {
                              "url": "content",
                              "valueString": "Stato emotivo"
                          }
                      ]
                  },
                  {
                      "url": "http://hl7.org/fhir/StructureDefinition/translation",
                      "extension": [
                          {
                              "url": "lang",
                              "valueCode": "rm"
                          },
                          {
                              "url": "content",
                              "valueString": "Befindlichkeiten"
                          }
                      ]
                  }
              ]
          },
          "type": "group",
          "repeats": false,
          "item": [
              {
                  "linkId": "QR1.IE1",
                  "text": "How are you?",
                  "_text": {
                      "extension": [
                          {
                              "url": "http://hl7.org/fhir/StructureDefinition/translation",
                              "extension": [
                                  {
                                      "url": "lang",
                                      "valueCode": "de"
                                  },
                                  {
                                      "url": "content",
                                      "valueString": "Wie geht es dir?"
                                  }
                              ]
                          },
                          {
                              "url": "http://hl7.org/fhir/StructureDefinition/translation",
                              "extension": [
                                  {
                                      "url": "lang",
                                      "valueCode": "en"
                                  },
                                  {
                                      "url": "content",
                                      "valueString": "How are you?"
                                  }
                              ]
                          },
                          {
                              "url": "http://hl7.org/fhir/StructureDefinition/translation",
                              "extension": [
                                  {
                                      "url": "lang",
                                      "valueCode": "fr"
                                  },
                                  {
                                      "url": "content",
                                      "valueString": "Comment vas-tu?"
                                  }
                              ]
                          },
                          {
                              "url": "http://hl7.org/fhir/StructureDefinition/translation",
                              "extension": [
                                  {
                                      "url": "lang",
                                      "valueCode": "gsw"
                                  },
                                  {
                                      "url": "content",
                                      "valueString": "Wie geit's dir so?"
                                  }
                              ]
                          },
                          {
                              "url": "http://hl7.org/fhir/StructureDefinition/translation",
                              "extension": [
                                  {
                                      "url": "lang",
                                      "valueCode": "it"
                                  },
                                  {
                                      "url": "content",
                                      "valueString": "Come va?"
                                  }
                              ]
                          },
                          {
                              "url": "http://hl7.org/fhir/StructureDefinition/translation",
                              "extension": [
                                  {
                                      "url": "lang",
                                      "valueCode": "rm"
                                  },
                                  {
                                      "url": "content",
                                      "valueString": "Wie geht es dir?"
                                  }
                              ]
                          }
                      ]
                  },
                  "type": "choice",
                  "repeats": false,
                  "answerValueSet": "#QR1.IE1.valueset"
              },
              {
                  "linkId": "QR1.IE2",
                  "text": "I worry about...",
                  "_text": {
                      "extension": [
                          {
                              "url": "http://hl7.org/fhir/StructureDefinition/translation",
                              "extension": [
                                  {
                                      "url": "lang",
                                      "valueCode": "de"
                                  },
                                  {
                                      "url": "content",
                                      "valueString": "Ich mache mir Sorgen über..."
                                  }
                              ]
                          },
                          {
                              "url": "http://hl7.org/fhir/StructureDefinition/translation",
                              "extension": [
                                  {
                                      "url": "lang",
                                      "valueCode": "en"
                                  },
                                  {
                                      "url": "content",
                                      "valueString": "I worry about..."
                                  }
                              ]
                          },
                          {
                              "url": "http://hl7.org/fhir/StructureDefinition/translation",
                              "extension": [
                                  {
                                      "url": "lang",
                                      "valueCode": "fr"
                                  },
                                  {
                                      "url": "content",
                                      "valueString": "Je me fais du soucis pour..."
                                  }
                              ]
                          },
                          {
                              "url": "http://hl7.org/fhir/StructureDefinition/translation",
                              "extension": [
                                  {
                                      "url": "lang",
                                      "valueCode": "gsw"
                                  },
                                  {
                                      "url": "content",
                                      "valueString": "I mache mir Sorge um..."
                                  }
                              ]
                          },
                          {
                              "url": "http://hl7.org/fhir/StructureDefinition/translation",
                              "extension": [
                                  {
                                      "url": "lang",
                                      "valueCode": "it"
                                  },
                                  {
                                      "url": "content",
                                      "valueString": "Sono preoccupato per..."
                                  }
                              ]
                          },
                          {
                              "url": "http://hl7.org/fhir/StructureDefinition/translation",
                              "extension": [
                                  {
                                      "url": "lang",
                                      "valueCode": "rm"
                                  },
                                  {
                                      "url": "content",
                                      "valueString": "Ich mache mir Sorgen über..."
                                  }
                              ]
                          }
                      ]
                  },
                  "type": "choice",
                  "repeats": true,
                  "answerValueSet": "#QR1.IE2.valueset"
              },
              {
                  "linkId": "QR1.IE3",
                  "text": "I go outside...",
                  "_text": {
                      "extension": [
                          {
                              "url": "http://hl7.org/fhir/StructureDefinition/translation",
                              "extension": [
                                  {
                                      "url": "lang",
                                      "valueCode": "de"
                                  },
                                  {
                                      "url": "content",
                                      "valueString": "Ich gehe nach draussen..."
                                  }
                              ]
                          },
                          {
                              "url": "http://hl7.org/fhir/StructureDefinition/translation",
                              "extension": [
                                  {
                                      "url": "lang",
                                      "valueCode": "en"
                                  },
                                  {
                                      "url": "content",
                                      "valueString": "I go outside..."
                                  }
                              ]
                          },
                          {
                              "url": "http://hl7.org/fhir/StructureDefinition/translation",
                              "extension": [
                                  {
                                      "url": "lang",
                                      "valueCode": "fr"
                                  },
                                  {
                                      "url": "content",
                                      "valueString": "Je vais dehors..."
                                  }
                              ]
                          },
                          {
                              "url": "http://hl7.org/fhir/StructureDefinition/translation",
                              "extension": [
                                  {
                                      "url": "lang",
                                      "valueCode": "gsw"
                                  },
                                  {
                                      "url": "content",
                                      "valueString": "I go voruse..."
                                  }
                              ]
                          },
                          {
                              "url": "http://hl7.org/fhir/StructureDefinition/translation",
                              "extension": [
                                  {
                                      "url": "lang",
                                      "valueCode": "it"
                                  },
                                  {
                                      "url": "content",
                                      "valueString": "Vado fuori..."
                                  }
                              ]
                          },
                          {
                              "url": "http://hl7.org/fhir/StructureDefinition/translation",
                              "extension": [
                                  {
                                      "url": "lang",
                                      "valueCode": "rm"
                                  },
                                  {
                                      "url": "content",
                                      "valueString": "Ich gehe nach draussen..."
                                  }
                              ]
                          }
                      ]
                  },
                  "type": "choice",
                  "repeats": false,
                  "answerValueSet": "#QR1.IE3.valueset"
              },
              {
                  "linkId": "QR1.IE4",
                  "text": "I'm feeling....",
                  "_text": {
                      "extension": [
                          {
                              "url": "http://hl7.org/fhir/StructureDefinition/translation",
                              "extension": [
                                  {
                                      "url": "lang",
                                      "valueCode": "de"
                                  },
                                  {
                                      "url": "content",
                                      "valueString": "Ich fühle mich..."
                                  }
                              ]
                          },
                          {
                              "url": "http://hl7.org/fhir/StructureDefinition/translation",
                              "extension": [
                                  {
                                      "url": "lang",
                                      "valueCode": "en"
                                  },
                                  {
                                      "url": "content",
                                      "valueString": "I'm feeling..."
                                  }
                              ]
                          },
                          {
                              "url": "http://hl7.org/fhir/StructureDefinition/translation",
                              "extension": [
                                  {
                                      "url": "lang",
                                      "valueCode": "fr"
                                  },
                                  {
                                      "url": "content",
                                      "valueString": "Je me sens..."
                                  }
                              ]
                          },
                          {
                              "url": "http://hl7.org/fhir/StructureDefinition/translation",
                              "extension": [
                                  {
                                      "url": "lang",
                                      "valueCode": "gsw"
                                  },
                                  {
                                      "url": "content",
                                      "valueString": "I füehle mi..."
                                  }
                              ]
                          },
                          {
                              "url": "http://hl7.org/fhir/StructureDefinition/translation",
                              "extension": [
                                  {
                                      "url": "lang",
                                      "valueCode": "it"
                                  },
                                  {
                                      "url": "content",
                                      "valueString": "Mi sento..."
                                  }
                              ]
                          },
                          {
                              "url": "http://hl7.org/fhir/StructureDefinition/translation",
                              "extension": [
                                  {
                                      "url": "lang",
                                      "valueCode": "rm"
                                  },
                                  {
                                      "url": "content",
                                      "valueString": "Ich fühle mich..."
                                  }
                              ]
                          }
                      ]
                  },
                  "type": "choice",
                  "repeats": false,
                  "answerValueSet": "#QR1.IE4.valueset"
              }
          ]
      }
  ]
}